Frank-Hertz Experiment		
		
Vr(V)= 1.0		
Cathode Heater Current (mA) = 240		
		 
Va(V)_1	Ia(E-12 A)_1	T(c)_1
0.00	0.02	111.17
0.05	0.49	111.17
0.10	0.01	111.17
0.15	0.12	111.16
0.20	0.68	111.16
0.25	0.18	111.16
0.30	0.05	111.16
0.35	0.13	111.15
0.40	0.46	111.15
0.45	0.44	111.15
0.50	0.04	111.15
0.55	0.05	111.15
0.60	0.04	111.15
0.65	0.14	111.14
0.70	0.22	111.14
0.75	0.01	111.15
0.80	0.00	111.15
0.85	0.04	111.14
0.90	0.28	111.14
0.95	0.07	111.14
1.00	0.14	111.14
1.05	0.02	111.13
1.10	0.03	111.13
1.15	0.07	111.13
1.20	0.03	111.13
1.25	0.12	111.12
1.30	0.22	111.12
1.35	0.16	111.12
1.40	0.07	111.12
1.45	0.08	111.12
1.50	0.11	111.12
1.55	0.03	111.12
1.60	0.00	111.11
1.65	0.03	111.11
1.70	0.05	111.10
1.75	0.06	111.10
1.80	0.20	111.11
1.85	0.08	111.11
1.90	0.07	111.10
1.95	0.01	111.10
2.00	0.05	111.09
2.05	0.03	111.09
2.10	0.01	111.09
2.15	0.00	111.09
2.20	0.22	111.09
2.25	0.20	111.09
2.30	0.16	111.09
2.35	0.06	111.09
2.40	0.29	111.08
2.45	0.02	111.08
2.50	0.08	111.07
2.55	0.08	111.07
2.60	0.26	111.06
2.65	0.10	111.06
2.70	0.04	111.06
2.75	0.01	111.06
2.80	0.00	111.06
2.85	0.05	111.06
2.90	0.09	111.05
2.95	0.07	111.05
3.00	0.04	111.05
3.05	0.06	111.05
3.10	0.05	111.05
3.15	0.04	111.05
3.20	0.04	111.05
3.25	0.11	111.05
3.30	0.00	111.04
3.35	0.10	111.04
3.40	0.06	111.03
3.45	0.04	111.03
3.50	0.10	111.03
3.55	0.26	111.03
3.60	0.01	111.02
3.65	0.03	111.02
3.70	0.00	111.02
3.75	0.09	111.02
3.80	0.08	111.02
3.85	0.11	111.02
3.90	0.06	111.01
3.95	0.09	111.01
4.00	0.16	111.01
4.05	0.13	111.00
4.10	0.07	111.00
4.15	0.00	111.00
4.20	0.11	111.00
4.25	0.19	111.00
4.30	0.06	111.00
4.35	0.01	111.00
4.40	0.15	111.00
4.45	0.01	110.99
4.50	0.09	110.99
4.55	0.04	110.98
4.60	0.05	110.98
4.65	0.05	110.98
4.70	0.03	110.98
4.75	0.01	110.98
4.80	0.11	110.98
4.85	0.03	110.98
4.90	0.07	110.98
4.95	0.08	110.97
5.00	0.13	110.97
5.05	0.09	110.97
5.10	0.10	110.97
5.15	0.13	110.97
5.20	0.07	110.97
5.25	0.11	110.96
5.30	0.19	110.96
5.35	0.03	110.97
5.40	0.05	110.97
5.45	0.10	110.96
5.50	0.04	110.96
5.55	0.10	110.95
5.60	0.14	110.95
5.65	0.09	110.95
5.70	0.08	110.95
5.75	0.13	110.94
5.80	0.16	110.94
5.85	0.13	110.94
5.90	0.16	110.94
5.95	0.10	110.93
6.00	0.02	110.93
6.05	0.03	110.91
6.10	0.11	110.91
6.15	0.01	110.91
6.20	0.06	110.91
6.25	0.06	110.90
6.30	0.07	110.90
6.35	0.10	110.90
6.40	0.13	110.90
6.45	0.08	110.90
6.50	0.11	110.89
6.55	0.11	110.89
6.60	0.03	110.89
6.65	0.09	110.89
6.70	0.08	110.89
6.75	0.05	110.89
6.80	0.03	110.87
6.85	0.03	110.87
6.90	0.01	110.88
6.95	0.04	110.88
7.00	0.20	110.87
7.05	0.15	110.87
7.10	0.23	110.86
7.15	0.00	110.86
7.20	0.04	110.85
7.25	0.05	110.85
7.30	0.03	110.86
7.35	0.28	110.86
7.40	0.13	110.85
7.45	0.20	110.85
7.50	0.13	110.85
7.55	0.19	110.85
7.60	0.12	110.84
7.65	0.16	110.84
7.70	0.24	110.84
7.75	0.08	110.84
7.80	0.26	110.84
7.85	0.22	110.84
7.90	0.32	110.83
7.95	0.15	110.83
8.00	0.20	110.82
8.05	0.21	110.82
8.10	0.22	110.82
8.15	0.24	110.82
8.20	0.30	110.82
8.25	0.13	110.82
8.30	0.26	110.81
8.35	0.26	110.81
8.40	0.01	110.80
8.45	0.11	110.80
8.50	0.22	110.80
8.55	0.30	110.80
8.60	0.35	110.80
8.65	0.32	110.80
8.70	0.31	110.80
8.75	0.19	110.79
8.80	0.40	110.79
8.85	0.34	110.78
8.90	0.49	110.78
8.95	0.50	110.78
9.00	0.27	110.78
9.05	0.24	110.78
9.10	0.31	110.78
9.15	0.38	110.78
9.20	0.58	110.78
9.25	0.47	110.78
9.30	0.37	110.78
9.35	0.22	110.77
9.40	0.56	110.77
9.45	0.53	110.77
9.50	0.56	110.77
9.55	0.41	110.77
9.60	0.56	110.77
9.65	0.56	110.76
9.70	0.65	110.76
9.75	0.55	110.76
9.80	0.73	110.76
9.85	0.68	110.75
9.90	0.64	110.75
9.95	0.75	110.75
10.00	0.54	110.75
10.05	0.54	110.74
10.10	0.75	110.74
10.15	0.76	110.73
10.20	0.78	110.73
10.25	0.74	110.72
10.30	0.95	110.72
10.35	0.89	110.72
10.40	0.99	110.72
10.45	0.97	110.71
10.50	1.10	110.71
10.55	1.06	110.71
10.60	1.37	110.71
10.65	1.46	110.71
10.70	1.47	110.70
10.75	1.61	110.70
10.80	1.55	110.70
10.85	1.64	110.70
10.90	1.81	110.69
10.95	2.12	110.69
11.00	2.45	110.68
11.05	2.49	110.68
11.10	3.28	110.68
11.15	3.94	110.68
11.20	4.78	110.68
11.25	5.87	110.68
11.30	6.71	110.67
11.35	7.69	110.67
11.40	9.15	110.66
11.45	10.09	110.66
11.50	10.71	110.66
11.55	11.90	110.66
11.60	13.23	110.65
11.65	14.30	110.65
11.70	15.63	110.64
11.75	16.87	110.64
11.80	18.28	110.65
11.85	20.18	110.65
11.90	22.11	110.63
11.95	23.53	110.63
12.00	25.74	110.63
12.05	28.62	110.63
12.10	31.42	110.62
12.15	34.02	110.62
12.20	38.08	110.61
12.25	42.30	110.61
12.30	48.44	110.61
12.35	53.77	110.61
12.40	58.10	110.61
12.45	64.24	110.61
12.50	69.94	110.59
12.55	75.04	110.59
12.60	78.43	110.59
12.65	82.36	110.59
12.70	86.52	110.58
12.75	89.60	110.58
12.80	93.19	110.57
12.85	95.61	110.57
12.90	99.58	110.56
12.95	103.97	110.56
13.00	109.08	110.55
13.05	114.70	110.55
13.10	119.02	110.55
13.15	124.52	110.55
13.20	130.89	110.55
13.25	136.16	110.55
13.30	140.41	110.55
13.35	145.83	110.54
13.40	150.58	110.54
13.45	156.29	110.53
13.50	160.98	110.53
13.55	165.35	110.52
13.60	170.87	110.52
13.65	176.68	110.51
13.70	182.14	110.51
13.75	186.11	110.50
13.80	191.17	110.50
13.85	197.17	110.50
13.90	202.52	110.50
13.95	207.92	110.49
14.00	211.80	110.49
