Frank-Hertz Experiment		
		
Vr(V)= 1.5		
Cathode Heater Current (mA) = 240		
		 
Va(V)_1	Ia(E-12 A)_1	T(c)_1
0.00	0.02	139.33
0.10	0.05	139.33
0.20	0.06	139.31
0.30	0.09	139.31
0.40	0.07	139.29
0.50	0.05	139.29
0.60	0.07	139.28
0.70	0.06	139.28
0.80	0.13	139.26
0.90	0.18	139.26
1.00	0.01	139.25
1.10	0.11	139.25
1.20	0.20	139.23
1.30	0.20	139.23
1.40	0.10	139.21
1.50	0.23	139.21
1.60	0.22	139.20
1.70	0.22	139.20
1.80	0.15	139.18
1.90	0.14	139.18
2.00	0.10	139.17
2.10	0.09	139.17
2.20	0.19	139.15
2.30	0.25	139.15
2.40	0.07	139.15
2.50	0.29	139.15
2.60	0.09	139.13
2.70	0.13	139.13
2.80	0.07	139.11
2.90	0.22	139.11
3.00	0.42	139.10
3.10	0.40	139.10
3.20	0.66	139.08
3.30	0.90	139.08
3.40	1.20	139.07
3.50	1.53	139.07
3.60	2.06	139.07
3.70	2.84	139.05
3.80	3.38	139.05
3.90	4.24	139.03
4.00	5.50	139.03
4.10	6.80	139.01
4.20	8.36	139.01
4.30	10.33	138.99
4.40	12.18	138.99
4.50	14.93	138.98
4.60	18.20	138.98
4.70	21.09	138.96
4.80	25.50	138.96
4.90	29.25	138.94
5.00	34.88	138.94
5.10	39.88	138.93
5.20	46.64	138.93
5.30	52.59	138.91
5.40	61.17	138.91
5.50	68.52	138.89
5.60	78.10	138.89
5.70	88.51	138.87
5.80	96.45	138.87
5.90	105.94	138.85
6.00	111.55	138.85
6.10	114.18	138.84
6.20	111.08	138.84
6.30	103.18	138.82
6.40	93.77	138.82
6.50	82.99	138.81
6.60	73.72	138.81
6.70	63.18	138.78
6.80	51.66	138.78
6.90	42.07	138.76
7.00	32.43	138.76
7.10	26.30	138.75
7.20	20.69	138.75
7.30	17.28	138.74
7.40	14.05	138.74
7.50	11.86	138.72
7.60	9.78	138.72
7.70	8.62	138.70
7.80	7.83	138.70
7.90	8.21	138.69
8.00	9.35	138.69
8.10	11.61	138.67
8.20	14.64	138.67
8.30	19.30	138.65
8.40	24.06	138.65
8.50	28.73	138.64
8.60	35.31	138.64
8.70	42.20	138.62
8.80	51.76	138.62
8.90	60.52	138.62
9.00	72.47	138.60
9.10	83.06	138.60
9.20	97.20	138.59
9.30	109.67	138.59
9.40	126.40	138.57
9.50	143.90	138.57
9.60	160.05	138.54
9.70	180.46	138.54
9.80	198.26	138.53
9.90	221.56	138.53
10.00	242.94	138.52
10.10	268.93	138.52
10.20	291.19	138.49
10.30	319.81	138.49
10.40	344.78	138.47
10.50	375.55	138.47
10.60	405.35	138.46
10.70	428.61	138.46
10.80	453.96	138.44
10.90	468.65	138.44
11.00	476.11	138.43
11.10	471.77	138.43
11.20	455.12	138.41
11.30	432.87	138.41
11.40	403.89	138.40
11.50	378.34	138.40
11.60	344.05	138.39
11.70	305.88	138.39
11.80	268.27	138.37
11.90	225.43	138.37
12.00	195.59	138.35
12.10	167.49	138.35
12.20	147.87	138.35
12.30	126.70	138.35
12.40	110.45	138.33
12.50	93.45	138.33
12.60	82.52	138.32
12.70	74.28	138.32
12.80	70.19	138.30
12.90	69.38	138.30
13.00	70.64	138.29
13.10	73.37	138.29
13.20	78.38	138.28
13.30	83.66	138.28
13.40	91.85	138.27
13.50	102.44	138.27
13.60	114.04	138.25
13.70	130.16	138.25
13.80	144.92	138.24
13.90	165.01	138.24
14.00	182.38	138.22
14.10	205.77	138.22
14.20	226.35	138.22
14.30	254.05	138.22
14.40	278.78	138.22
14.50	309.23	138.20
14.60	342.33	138.20
14.70	371.16	138.20
14.80	408.68	138.20
14.90	441.74	138.18
15.00	484.19	138.18
15.10	519.61	138.17
15.20	565.16	138.17
15.30	604.20	138.15
15.40	651.86	138.15
15.50	690.62	138.14
15.60	734.26	138.14
15.70	774.79	138.13
15.80	801.49	138.13
15.90	824.05	138.11
16.00	832.55	138.11
16.10	833.69	138.09
16.20	826.01	138.09
16.30	810.18	138.08
16.40	790.77	138.08
16.50	758.25	138.06
16.60	720.38	138.06
16.70	668.71	138.04
16.80	611.88	138.04
16.90	568.42	138.03
17.00	522.69	138.03
17.10	486.83	138.01
17.20	444.42	138.01
17.30	406.97	138.00
17.40	365.00	138.00
17.50	332.96	137.99
17.60	313.80	137.99
17.70	297.80	137.98
17.80	286.97	137.98
17.90	277.33	137.97
18.00	271.05	137.97
18.10	267.13	137.95
18.20	267.84	137.95
18.30	272.68	137.93
18.40	281.77	137.93
18.50	291.81	137.92
18.60	306.75	137.92
18.70	321.47	137.90
18.80	340.98	137.90
18.90	360.05	137.88
19.00	385.79	137.88
19.10	410.87	137.87
19.20	443.28	137.87
19.30	471.70	137.87
19.40	508.70	137.86
19.50	546.80	137.86
19.60	582.74	137.84
19.70	628.15	137.84
19.80	667.53	137.83
19.90	717.74	137.83
20.00	763.68	137.82
20.10	817.37	137.82
20.20	863.18	137.80
20.30	920.53	137.80
20.40	969.27	137.79
20.50	1025.09	137.79
20.60	1075.07	137.78
20.70	1112.52	137.78
20.80	1151.36	137.76
20.90	1178.90	137.76
21.00	1204.02	137.74
21.10	1219.07	137.74
21.20	1228.21	137.74
21.30	1227.37	137.74
21.40	1214.66	137.72
21.50	1194.31	137.72
21.60	1159.88	137.71
21.70	1121.53	137.71
21.80	1087.52	137.69
21.90	1047.73	137.69
22.00	1013.34	137.68
22.10	966.44	137.68
22.20	923.07	137.66
22.30	874.35	137.66
22.40	831.39	137.65
22.50	804.65	137.65
22.60	777.78	137.63
22.70	756.24	137.63
22.80	729.78	137.62
22.90	709.51	137.62
23.00	691.39	137.61
23.10	683.08	137.61
23.20	679.53	137.59
23.30	679.44	137.59
23.40	680.66	137.58
23.50	683.23	137.58
23.60	688.43	137.57
23.70	698.47	137.57
23.80	711.44	137.55
23.90	732.01	137.55
24.00	751.89	137.54
24.10	777.16	137.54
24.20	800.38	137.54
24.30	832.23	137.53
24.40	862.98	137.53
24.50	902.99	137.52
24.60	947.42	137.52
24.70	986.09	137.51
24.80	1035.17	137.51
24.90	1079.28	137.49
25.00	1135.41	137.49
25.10	1182.67	137.48
25.20	1242.76	137.48
25.30	1294.50	137.47
25.40	1354.56	137.47
25.50	1402.15	137.46
25.60	1456.72	137.46
25.70	1509.83	137.44
25.80	1553.24	137.44
25.90	1600.07	137.43
26.00	1634.68	137.43
26.10	1669.06	137.42
26.20	1691.30	137.42
26.30	1708.21	137.41
26.40	1715.38	137.41
26.50	1716.47	137.40
26.60	1713.66	137.40
26.70	1705.91	137.39
26.80	1691.51	137.39
26.90	1676.01	137.38
27.00	1649.45	137.38
27.10	1623.93	137.37
27.20	1592.27	137.37
27.30	1566.76	137.35
27.40	1550.12	137.35
27.50	1530.93	137.34
27.60	1509.95	137.34
27.70	1478.76	137.34
27.80	1453.95	137.34
27.90	1428.98	137.32
28.00	1414.43	137.32
28.10	1401.43	137.31
28.20	1392.03	137.31
28.30	1379.06	137.31
28.40	1367.69	137.31
28.50	1361.18	137.30
28.60	1359.80	137.30
28.70	1363.05	137.29
28.80	1369.47	137.29
28.90	1375.78	137.29
29.00	1384.02	137.27
29.10	1393.76	137.27
29.20	1411.55	137.27
29.30	1433.63	137.27
29.40	1463.86	137.26
29.50	1496.15	137.26
29.60	1525.45	137.25
29.70	1563.32	137.25
29.80	1599.97	137.24
29.90	1648.06	137.24
30.00	1692.77	137.23
30.10	1747.87	137.23
30.20	1795.21	137.22
30.30	1849.19	137.22
30.40	1894.30	137.22
30.50	1950.19	137.22
30.60	2005.77	137.20
30.70	2054.69	137.20
30.80	2109.63	137.19
30.90	2151.86	137.19
31.00	2199.01	137.18
31.10	2235.02	137.18
31.20	2273.96	137.17
31.30	2302.35	137.17
31.40	2331.48	137.16
31.50	2356.88	137.16
31.60	2374.23	137.16
31.70	2388.62	137.16
31.80	2396.75	137.14
31.90	2401.29	137.14
32.00	2402.19	137.14
32.10	2401.06	137.14
32.20	2399.37	137.12
32.30	2395.89	137.12
32.40	2391.03	137.11
32.50	2384.94	137.11
32.60	2376.96	137.10
32.70	2371.18	137.10
32.80	2365.22	137.08
32.90	2363.30	137.08
33.00	2359.99	137.08
33.10	2357.33	137.08
33.20	2350.38	137.07
33.30	2344.80	137.07
33.40	2340.26	137.07
33.50	2338.93	137.07
33.60	2341.08	137.07
33.70	2342.34	137.05
33.80	2343.93	137.05
33.90	2345.45	137.04
34.00	2350.86	137.04
34.10	2360.95	137.03
34.20	2374.26	137.03
34.30	2392.49	137.02
34.40	2408.64	137.02
34.50	2428.99	137.02
34.60	2452.48	137.02
34.70	2478.30	137.01
34.80	2513.55	137.01
34.90	2545.46	137.00
35.00	2585.60	137.00
35.10	2619.92	136.99
35.20	2660.19	136.99
35.30	2696.00	136.99
35.40	2742.80	136.99
35.50	2785.94	136.98
35.60	2833.59	136.98
35.70	2880.16	136.97
35.80	2917.85	136.97
35.90	2962.37	136.97
36.00	3003.31	136.97
36.10	3049.42	136.96
36.20	3090.21	136.96
36.30	3133.87	136.95
36.40	3167.87	136.95
36.50	3205.66	136.94
36.60	3237.09	136.94
36.70	3272.10	136.92
36.80	3307.02	136.92
36.90	3334.58	136.92
37.00	3366.47	136.92
37.10	3392.46	136.91
37.20	3421.06	136.91
37.30	3445.01	136.90
37.40	3470.48	136.90
37.50	3491.41	136.89
37.60	3513.70	136.89
37.70	3531.63	136.89
37.80	3551.57	136.89
37.90	3570.81	136.89
38.00	3587.94	136.88
38.10	3606.13	136.88
38.20	3622.15	136.87
38.30	3640.80	136.87
38.40	3655.78	136.87
38.50	3671.86	136.87
38.60	3684.93	136.85
38.70	3698.74	136.85
38.80	3710.76	136.85
38.90	3726.45	136.85
39.00	3744.31	136.84
39.10	3762.39	136.84
39.20	3781.87	136.84
39.30	3799.31	136.84
39.40	3819.86	136.82
39.50	3841.91	136.82
39.60	3870.20	136.82
39.70	3899.35	136.82
39.80	3933.33	136.81
39.90	3962.49	136.81
40.00	3994.81	136.81
