Frank-Hertz Experiment		
		
Vr(V)= 1.0		
Cathode Heater Current (mA) = 260		
		 
Va(V)_1	Ia(E-12 A)_1	T(c)_1
0.00	0.00	110.47
0.05	0.52	110.46
0.10	0.03	110.46
0.15	0.02	110.46
0.20	0.16	110.46
0.25	0.12	110.46
0.30	0.01	110.46
0.35	0.09	110.46
0.40	0.20	110.46
0.45	0.00	110.46
0.50	0.01	110.46
0.55	0.02	110.45
0.60	0.12	110.45
0.65	0.10	110.45
0.70	0.05	110.45
0.75	0.04	110.45
0.80	0.08	110.45
0.85	0.01	110.45
0.90	0.13	110.45
0.95	0.11	110.45
1.00	0.03	110.45
1.05	0.05	110.44
1.10	0.04	110.44
1.15	0.23	110.44
1.20	0.02	110.44
1.25	0.01	110.44
1.30	0.11	110.43
1.35	0.02	110.43
1.40	0.04	110.44
1.45	0.00	110.44
1.50	0.00	110.43
1.55	0.07	110.43
1.60	0.04	110.43
1.65	0.04	110.43
1.70	0.04	110.43
1.75	0.02	110.43
1.80	0.16	110.42
1.85	0.17	110.42
1.90	0.05	110.43
1.95	0.01	110.43
2.00	0.05	110.43
2.05	0.07	110.43
2.10	0.18	110.43
2.15	0.17	110.43
2.20	0.23	110.42
2.25	0.02	110.42
2.30	0.03	110.42
2.35	0.07	110.42
2.40	0.03	110.42
2.45	0.16	110.42
2.50	0.02	110.41
2.55	0.01	110.41
2.60	0.04	110.40
2.65	0.09	110.40
2.70	0.05	110.40
2.75	0.03	110.40
2.80	0.23	110.41
2.85	0.04	110.41
2.90	0.04	110.40
2.95	0.03	110.40
3.00	0.07	110.40
3.05	0.21	110.40
3.10	0.16	110.40
3.15	0.03	110.40
3.20	0.01	110.39
3.25	0.03	110.39
3.30	0.04	110.39
3.35	0.02	110.39
3.40	0.11	110.39
3.45	0.10	110.39
3.50	0.09	110.38
3.55	0.18	110.38
3.60	0.02	110.38
3.65	0.03	110.38
3.70	0.05	110.38
3.75	0.13	110.38
3.80	0.10	110.38
3.85	0.12	110.38
3.90	0.04	110.38
3.95	0.03	110.39
4.00	0.01	110.39
4.05	0.11	110.38
4.10	0.09	110.38
4.15	0.02	110.37
4.20	0.03	110.37
4.25	0.06	110.37
4.30	0.21	110.37
4.35	0.09	110.37
4.40	0.02	110.37
4.45	0.10	110.37
4.50	0.14	110.37
4.55	0.09	110.37
4.60	0.08	110.37
4.65	0.03	110.36
4.70	0.04	110.36
4.75	0.02	110.36
4.80	0.02	110.36
4.85	0.10	110.36
4.90	0.09	110.36
4.95	0.09	110.36
5.00	0.13	110.36
5.05	0.20	110.36
5.10	0.02	110.36
5.15	0.06	110.36
5.20	0.07	110.36
5.25	0.09	110.35
5.30	0.06	110.35
5.35	0.09	110.35
5.40	0.17	110.35
5.45	0.00	110.35
5.50	0.15	110.35
5.55	0.11	110.35
5.60	0.01	110.35
5.65	0.16	110.34
5.70	0.03	110.34
5.75	0.02	110.35
5.80	0.04	110.35
5.85	0.07	110.35
5.90	0.06	110.35
5.95	0.10	110.35
6.00	0.29	110.35
6.05	0.08	110.35
6.10	0.06	110.35
6.15	0.14	110.35
6.20	0.03	110.34
6.25	0.07	110.34
6.30	0.06	110.34
6.35	0.02	110.34
6.40	0.06	110.34
6.45	0.14	110.34
6.50	0.11	110.34
6.55	0.21	110.34
6.60	0.17	110.34
6.65	0.28	110.34
6.70	0.08	110.33
6.75	0.17	110.33
6.80	0.25	110.33
6.85	0.15	110.33
6.90	0.34	110.33
6.95	0.25	110.33
7.00	0.30	110.33
7.05	0.15	110.33
7.10	0.40	110.33
7.15	0.42	110.33
7.20	0.36	110.33
7.25	0.43	110.33
7.30	0.47	110.32
7.35	0.52	110.32
7.40	0.63	110.32
7.45	0.53	110.32
7.50	0.53	110.31
7.55	0.46	110.31
7.60	0.60	110.31
7.65	0.59	110.31
7.70	0.71	110.30
7.75	0.53	110.30
7.80	0.74	110.31
7.85	0.76	110.31
7.90	0.73	110.30
7.95	0.75	110.30
8.00	0.71	110.30
8.05	0.68	110.31
8.10	0.66	110.31
8.15	0.92	110.30
8.20	0.76	110.30
8.25	0.76	110.30
8.30	0.87	110.30
8.35	0.71	110.30
8.40	0.79	110.30
8.45	0.75	110.30
8.50	0.85	110.30
8.55	0.83	110.30
8.60	0.92	110.30
8.65	0.93	110.30
8.70	0.72	110.30
8.75	0.87	110.29
8.80	0.85	110.29
8.85	1.05	110.29
8.90	1.11	110.29
8.95	1.06	110.29
9.00	1.09	110.29
9.05	1.15	110.29
9.10	1.25	110.29
9.15	1.37	110.29
9.20	1.17	110.29
9.25	1.13	110.28
9.30	1.42	110.28
9.35	1.26	110.28
9.40	1.44	110.28
9.45	1.38	110.28
9.50	1.42	110.28
9.55	1.73	110.28
9.60	1.62	110.28
9.65	1.66	110.27
9.70	1.67	110.27
9.75	1.68	110.27
9.80	1.77	110.27
9.85	2.05	110.27
9.90	2.06	110.27
9.95	1.95	110.27
10.00	2.07	110.27
10.05	1.86	110.26
10.10	2.20	110.26
10.15	2.36	110.26
10.20	2.17	110.26
10.25	2.63	110.26
10.30	2.66	110.26
10.35	2.86	110.26
10.40	3.10	110.26
10.45	3.00	110.26
10.50	3.46	110.26
10.55	3.80	110.26
10.60	3.84	110.25
10.65	4.35	110.25
10.70	4.26	110.26
10.75	5.00	110.26
10.80	5.11	110.25
10.85	5.41	110.25
10.90	6.10	110.26
10.95	7.14	110.26
11.00	8.14	110.25
11.05	9.25	110.25
11.10	10.82	110.26
11.15	13.25	110.26
11.20	16.00	110.26
11.25	19.27	110.26
11.30	21.89	110.25
11.35	25.63	110.25
11.40	30.05	110.25
11.45	33.57	110.25
11.50	36.41	110.25
11.55	39.69	110.25
11.60	43.78	110.25
11.65	48.09	110.25
11.70	52.77	110.25
11.75	57.00	110.25
11.80	62.83	110.25
11.85	69.69	110.25
11.90	76.44	110.24
11.95	81.92	110.24
12.00	89.36	110.24
12.05	99.30	110.24
12.10	109.14	110.24
12.15	118.18	110.24
12.20	131.60	110.23
12.25	147.77	110.23
12.30	168.80	110.24
12.35	188.78	110.24
12.40	206.36	110.22
12.45	230.38	110.22
12.50	256.06	110.23
12.55	279.55	110.23
12.60	295.98	110.23
12.65	315.20	110.23
12.70	336.17	110.23
12.75	352.18	110.23
12.80	369.30	110.23
12.85	381.49	110.23
12.90	397.27	110.23
12.95	415.48	110.23
13.00	437.18	110.23
13.05	460.43	110.24
13.10	479.68	110.24
13.15	505.35	110.23
13.20	537.37	110.23
13.25	564.97	110.22
13.30	586.53	110.22
13.35	616.19	110.22
13.40	641.67	110.22
13.45	671.16	110.22
13.50	695.83	110.22
13.55	716.56	110.23
13.60	744.56	110.23
13.65	775.69	110.22
13.70	804.81	110.22
13.75	827.10	110.23
13.80	854.64	110.23
13.85	887.30	110.22
13.90	916.00	110.22
13.95	944.32	110.22
14.00	965.55	110.22
14.05	992.68	110.22
14.10	1023.64	110.22
14.15	1049.33	110.22
14.20	1070.27	110.22
14.25	1097.23	110.22
14.30	1125.29	110.22
14.35	1150.89	110.21
14.40	1170.08	110.21
14.45	1195.03	110.21
14.50	1218.63	110.21
14.55	1242.94	110.21
14.60	1264.81	110.21
14.65	1280.94	110.21
14.70	1300.59	110.21
14.75	1323.91	110.21
14.80	1343.58	110.21
14.85	1359.75	110.21
14.90	1380.53	110.21
14.95	1403.02	110.21
15.00	1425.13	110.21
15.05	1444.88	110.20
15.10	1460.31	110.20
15.15	1480.30	110.20
15.20	1501.20	110.20
15.25	1519.37	110.20
15.30	1533.37	110.20
15.35	1550.20	110.20
15.40	1568.67	110.20
15.45	1583.39	110.20
15.50	1594.76	110.19
